Date and Time:                Wed Jul 31 19:35:22.000 2024
Software Version:             4.32.30065.0
Temperature (C):              -80
Model:                        DU970P_BVF
Data Type:                    Counts
Acquisition Mode:             Accumulate
Trigger Mode:                 Internal
Exposure Time (secs):         2
Accumulate Cycle Time (secs): 2
Frequency (Hz):               0.5
Number of Accumulations:      6
Readout Mode:                 Full Vertical Binning
Horizontal binning:           1
Shutter Mode:                 Permanently OPEN
TTL level:                    High
Time to open:                 27 ms
Time to close:                27 ms
Extended Data Range:          off
Horizontally flipped:         false
Vertical Shift Speed (usecs): 4.88
Pixel Readout Rate (MHz):     0.05
Baseline Clamp:               ON
Clock Amplitude:              Normal
Output Amplifier:             Conventional
Serial Number:                28257
Pre-Amplifier Gain:           4.000000
Spurious Noise Filter Mode:   No Filter
Photon counted:               false
Data Averaging Filter Mode:   No Filter
KY328i:
Serial Number:                
Wavelength (nm):              842
Grating Groove Density (l/mm):1200
Grating Blaze:                500NM
Input Flipper Port:           Side
Output Flipper Port:          Direct



817.89807	1929
817.92865	1970
817.95923	1956
817.98981	1972
818.02039	1920
818.05096	1977
818.08154	1984
818.11212	1944
818.1427	1941
818.17328	1945
818.20386	1968
818.23444	1945
818.26501	1957
818.29559	1992
818.32617	1958
818.35675	1958
818.38733	1944
818.41785	1969
818.44843	1972
818.479	1967
818.50958	1984
818.54016	1964
818.57068	1946
818.60126	1962
818.63184	1966
818.66241	1964
818.69293	1951
818.72351	1953
818.75409	1946
818.78461	1926
818.81519	1957
818.84576	1974
818.87628	1966
818.90686	1936
818.93738	1964
818.96796	1942
818.99847	1958
819.02905	1957
819.05957	1940
819.09015	1976
819.12067	1996
819.15125	1950
819.18176	1951
819.21234	1985
819.24286	1987
819.27338	1963
819.30396	1981
819.33447	1987
819.36499	1923
819.39557	1970
819.42609	1943
819.4566	1955
819.48718	1981
819.5177	1949
819.54822	1953
819.57874	1976
819.60925	1974
819.63983	1959
819.67035	1975
819.70087	1930
819.73138	1944
819.7619	1966
819.79242	1951
819.82294	1994
819.85345	1941
819.88397	1976
819.91455	1956
819.94507	1938
819.97559	1959
820.0061	1955
820.03662	1949
820.06708	1982
820.0976	1972
820.12811	1975
820.15863	1978
820.18915	1983
820.21967	1954
820.25018	1974
820.2807	1965
820.31122	1980
820.34167	1974
820.37219	1950
820.40271	1944
820.43323	1953
820.46368	1958
820.4942	1993
820.52472	1961
820.55518	1969
820.58569	1948
820.61621	1946
820.64667	1975
820.67719	1953
820.7077	2019
820.73816	1963
820.76868	1981
820.79913	1978
820.82965	1976
820.86011	1978
820.89063	1927
820.92108	1921
820.9516	1970
820.98206	1981
821.01257	1970
821.04303	1956
821.07355	1989
821.104	1963
821.13446	1988
821.16498	1951
821.19543	1948
821.22589	1966
821.25641	1951
821.28687	1983
821.31732	1946
821.34784	1963
821.3783	1961
821.40875	1972
821.43921	1981
821.46967	1951
821.50018	1985
821.53064	1927
821.5611	1982
821.59155	1940
821.62201	1939
821.65247	1962
821.68292	1973
821.71338	1946
821.74384	1962
821.77429	1954
821.80475	1986
821.83521	1981
821.86566	1977
821.89612	1964
821.92657	1970
821.95703	1952
821.98749	1923
822.01794	1953
822.0484	1973
822.07886	1980
822.10931	1989
822.13971	1958
822.17017	1993
822.20062	1975
822.23108	1952
822.26154	1959
822.29193	1981
822.32239	1966
822.35284	1977
822.38324	1988
822.4137	2011
822.44415	2009
822.47455	1968
822.505	1968
822.53546	1979
822.56586	1989
822.59631	1955
822.62671	1943
822.65717	1977
822.68756	1977
822.71802	1963
822.74841	1986
822.77887	1978
822.80927	1972
822.83972	1977
822.87012	1979
822.90057	1989
822.93097	1948
822.96136	1968
822.99182	1980
823.02222	1958
823.05261	1983
823.08307	2001
823.11346	1968
823.14386	1971
823.17432	1994
823.20471	1972
823.23511	1963
823.2655	1946
823.2959	1965
823.32635	1965
823.35675	1964
823.38715	1970
823.41754	1947
823.44794	1986
823.47833	1975
823.50873	1964
823.53912	1988
823.56952	1968
823.59991	1966
823.63031	1965
823.66071	1962
823.6911	1977
823.7215	1944
823.75189	1988
823.78229	1962
823.81268	1967
823.84308	1980
823.87347	2017
823.90387	1966
823.9342	1994
823.9646	1989
823.995	1996
824.02539	1976
824.05579	1968
824.08612	1983
824.11652	1977
824.14691	1971
824.17725	1971
824.20764	1981
824.23804	1951
824.26837	1977
824.29877	1968
824.32916	1979
824.3595	1960
824.38989	1977
824.42023	1954
824.45062	1989
824.48102	1928
824.51135	1947
824.54175	2001
824.57208	1969
824.60242	1998
824.63281	1958
824.66315	2003
824.69354	1998
824.72388	1966
824.75421	1986
824.78461	1981
824.81494	1970
824.84528	1983
824.87567	1945
824.90601	2003
824.93634	1991
824.96674	1961
824.99707	1997
825.0274	2009
825.05774	1990
825.08807	2006
825.11847	1967
825.1488	1978
825.17914	1989
825.20947	2012
825.23981	1992
825.27014	2013
825.30048	1985
825.33081	1986
825.36115	1989
825.39148	1977
825.42181	1994
825.45215	1996
825.48248	1999
825.51282	2001
825.54315	2019
825.57349	2013
825.60382	2000
825.63416	1966
825.66449	1990
825.69482	1996
825.7251	1958
825.75543	1969
825.78577	2003
825.8161	1994
825.84637	1987
825.87671	1971
825.90704	1995
825.93738	2004
825.96765	2014
825.99799	1972
826.02832	2006
826.05859	1999
826.08893	1975
826.11926	2023
826.14954	1977
826.17987	2000
826.21014	2000
826.24048	1977
826.27075	2009
826.30109	1963
826.33136	1990
826.36169	2025
826.39197	2002
826.4223	1936
826.45258	1994
826.48285	1994
826.51318	1976
826.54346	2002
826.57373	1999
826.60406	1998
826.63434	1974
826.66461	2006
826.69495	2005
826.72522	2014
826.75549	2019
826.78577	1993
826.8161	1968
826.84637	2007
826.87665	1993
826.90692	2008
826.93719	1922
826.96747	1997
826.99774	1985
827.02808	2007
827.05835	1991
827.08862	2001
827.1189	1962
827.14917	1992
827.17944	1999
827.20972	1994
827.23999	1998
827.27026	2002
827.30048	1997
827.33075	2005
827.36102	1996
827.3913	1980
827.42157	1975
827.45184	1991
827.48212	2018
827.51233	1976
827.5426	2010
827.57288	2002
827.60315	1992
827.63342	1990
827.66364	2000
827.69391	2000
827.72418	1983
827.75439	2033
827.78467	2006
827.81494	2001
827.84515	1985
827.87543	2018
827.90564	1995
827.93591	2007
827.96613	2008
827.9964	2015
828.02661	1991
828.05688	2016
828.0871	1982
828.11737	1992
828.14758	1994
828.17786	1986
828.20807	1999
828.23834	1963
828.26855	1986
828.29877	1979
828.32904	1997
828.35925	1982
828.38947	2014
828.41968	1996
828.44995	2016
828.48016	1977
828.51038	1985
828.54059	1985
828.57086	2006
828.60107	1970
828.63129	1989
828.6615	2000
828.69171	2010
828.72192	1979
828.75214	1976
828.78235	1987
828.81262	2016
828.84283	2014
828.87305	1988
828.90326	1981
828.93347	2011
828.96362	1992
828.99384	1981
829.02405	1991
829.05426	1977
829.08447	2004
829.11469	1967
829.1449	1961
829.17511	2003
829.20532	1998
829.23547	1994
829.26569	1996
829.2959	2006
829.32611	1980
829.35626	1991
829.38647	1984
829.41669	1987
829.4469	2019
829.47705	2005
829.50726	1955
829.53741	1989
829.56763	1995
829.59784	1998
829.62799	2018
829.6582	1998
829.68835	2019
829.71857	1959
829.74872	1996
829.77893	1961
829.80908	1995
829.83929	1980
829.86945	2014
829.89966	2003
829.92981	1992
829.95996	1983
829.99017	1984
830.02032	2008
830.05048	1985
830.08069	2001
830.11084	2007
830.14099	2000
830.1712	1984
830.20135	1968
830.23151	1989
830.26166	1992
830.29181	1999
830.32202	1994
830.35217	2016
830.38232	2037
830.41248	2016
830.44263	1981
830.47278	2001
830.50293	2023
830.53308	1987
830.56323	1994
830.59338	2012
830.62354	2001
830.65369	2000
830.68384	2021
830.71399	2019
830.74414	2013
830.77429	2007
830.80444	1992
830.83459	1987
830.86475	2029
830.89484	1998
830.92499	1993
830.95514	1956
830.98529	1968
831.01544	1986
831.04553	1995
831.07568	2028
831.10583	1979
831.13593	2010
831.16608	1971
831.19623	1978
831.22632	1978
831.25647	1995
831.28662	1976
831.31671	1990
831.34686	1958
831.37695	2014
831.4071	1995
831.43719	1985
831.46735	2007
831.49744	2013
831.52759	1977
831.55768	1994
831.58783	1976
831.61792	1980
831.64801	1983
831.67816	2006
831.70825	1966
831.73834	1987
831.76849	1992
831.79858	1980
831.82867	2008
831.85876	1968
831.88892	1978
831.91901	1985
831.9491	1967
831.97919	1997
832.00934	1978
832.03943	2023
832.06952	1983
832.09961	1994
832.1297	2021
832.15979	2022
832.18988	1992
832.21997	1974
832.25006	1991
832.28015	2031
832.31024	1962
832.34033	2016
832.37042	1992
832.40051	2025
832.4306	1982
832.46069	1989
832.49078	2001
832.52087	1986
832.5509	2015
832.58099	2038
832.61108	1985
832.64117	1998
832.67126	2004
832.70129	1962
832.73138	1974
832.76147	1966
832.79156	1962
832.82159	2001
832.85168	1998
832.88171	1992
832.9118	2030
832.94189	1987
832.97192	2005
833.00201	1985
833.03204	1971
833.06213	1985
833.09216	2007
833.12225	1956
833.15228	1993
833.18237	1970
833.2124	1969
833.24249	1995
833.27252	1996
833.30261	1997
833.33264	1982
833.36267	2015
833.39276	1969
833.42279	2004
833.45282	2012
833.48291	1996
833.51294	1987
833.54297	1996
833.573	2000
833.60303	1985
833.63312	1977
833.66315	2024
833.69318	2033
833.72321	2023
833.75323	2007
833.78326	1987
833.81329	2015
833.84332	1995
833.87341	1992
833.90344	1979
833.93347	2004
833.9635	1994
833.99353	2019
834.0235	1977
834.05353	2005
834.08356	1999
834.11359	1976
834.14362	2022
834.17365	1933
834.20367	2012
834.2337	2017
834.26367	1975
834.2937	1986
834.32373	1973
834.35376	2013
834.38373	1995
834.41376	1978
834.44379	2007
834.47382	2007
834.50378	2001
834.53381	1993
834.56378	1997
834.59381	1991
834.62384	1987
834.65381	2001
834.68384	1991
834.71381	1991
834.74384	2024
834.7738	2014
834.80383	1988
834.8338	1988
834.86383	2021
834.8938	1983
834.92383	1977
834.9538	1969
834.98376	1972
835.01379	2017
835.04376	2023
835.07373	1992
835.10376	1998
835.13373	2000
835.1637	1972
835.19366	1999
835.22369	2002
835.25366	1977
835.28363	1998
835.3136	1990
835.34357	2022
835.37354	2016
835.4035	1997
835.43353	2005
835.4635	1975
835.49347	2015
835.52344	2025
835.55341	2015
835.58337	1995
835.61334	2012
835.64331	2016
835.67328	2016
835.70325	2013
835.73315	1983
835.76312	2022
835.79309	2042
835.82306	2030
835.85303	1995
835.883	2012
835.91296	1994
835.94287	2011
835.97284	2000
836.00281	2017
836.03278	2001
836.06268	1967
836.09265	1963
836.12262	2018
836.15253	2061
836.1825	1999
836.2124	1980
836.24237	1999
836.27234	1983
836.30225	1982
836.33221	2012
836.36212	2011
836.39209	1998
836.422	2009
836.45197	1999
836.48187	1967
836.51184	2008
836.54175	2007
836.57166	2011
836.60162	2020
836.63153	1984
836.66144	1997
836.69141	1997
836.72131	2010
836.75122	1995
836.78119	1977
836.8111	1994
836.841	2011
836.87091	2018
836.90082	2009
836.93079	2026
836.96069	2024
836.9906	2015
837.02051	2000
837.05042	2036
837.08032	1995
837.11023	1983
837.14014	1987
837.17004	2010
837.19995	2024
837.22986	1975
837.25977	2022
837.28967	1978
837.31958	1988
837.34949	1974
837.37939	2020
837.4093	2030
837.43915	1998
837.46906	2022
837.49896	2012
837.52887	1976
837.55878	1981
837.58862	2028
837.61853	2020
837.64844	2014
837.67834	1998
837.70819	2021
837.7381	1972
837.76801	2035
837.79785	2012
837.82776	2005
837.8576	2007
837.88751	2015
837.91736	1979
837.94727	2021
837.97717	2014
838.00702	2035
838.03687	2041
838.06677	1982
838.09662	2010
838.12653	2000
838.15637	2045
838.18628	1990
838.21613	2019
838.24597	1988
838.27588	2028
838.30573	1981
838.33557	1976
838.36542	2003
838.39532	2021
838.42517	2017
838.45502	1991
838.48486	2013
838.51471	2033
838.54462	2050
838.57446	1996
838.60431	2011
838.63416	2040
838.664	1982
838.69385	2019
838.72369	2018
838.75354	1992
838.78339	2018
838.81323	2007
838.84308	1988
838.87292	2021
838.90277	1989
838.93262	2001
838.96246	2065
838.99231	2001
839.02216	2023
839.05194	2025
839.08179	1997
839.11163	2031
839.14148	1999
839.17126	2008
839.20111	2032
839.23096	2024
839.2608	2015
839.29059	2005
839.32043	1995
839.35028	2052
839.38007	2032
839.40991	2016
839.4397	2013
839.46954	2010
839.49939	2011
839.52917	2049
839.55902	2030
839.58881	2048
839.61865	2028
839.64844	2043
839.67822	2023
839.70807	2023
839.73785	2008
839.7677	2028
839.79749	2035
839.82727	2037
839.85712	1969
839.8869	1989
839.91669	2015
839.94647	1995
839.97632	1995
840.0061	2027
840.03589	2007
840.06567	2037
840.09552	1989
840.12531	2041
840.15509	2010
840.18488	2013
840.21466	2028
840.24445	2007
840.27423	2053
840.30402	1989
840.3338	1992
840.36359	2006
840.39337	2025
840.42316	1992
840.45294	2047
840.48273	2057
840.51251	2006
840.5423	2031
840.57208	2034
840.60181	2048
840.63159	2012
840.66138	2024
840.69116	2033
840.72095	2044
840.75067	2035
840.78046	2049
840.81024	2023
840.84003	2022
840.86975	2016
840.89954	2009
840.92926	2026
840.95905	2013
840.98883	2026
841.01855	2012
841.04834	2028
841.07806	2032
841.10785	2018
841.13757	2009
841.16736	2021
841.19708	2022
841.22687	2033
841.25659	1983
841.28638	2027
841.3161	2004
841.34583	1978
841.37561	2047
841.40533	2057
841.43506	2024
841.46484	2036
841.49457	2019
841.52429	1991
841.55402	2027
841.5838	2020
841.61353	2014
841.64325	1992
841.67297	2036
841.7027	2041
841.73242	2042
841.76215	2059
841.79193	2006
841.82166	2017
841.85138	2012
841.8811	2005
841.91083	2028
841.94055	2042
841.97028	2002
842	2009
842.02966	2010
842.05939	2013
842.08911	2011
842.11884	2064
842.14856	2021
842.17828	2025
842.20801	2015
842.23767	2021
842.2674	2025
842.29712	1999
842.32684	2017
842.35651	2015
842.38623	2047
842.41595	2035
842.44562	2013
842.47534	2017
842.50507	2024
842.53473	2070
842.56445	2023
842.59412	2034
842.62384	2037
842.6535	2020
842.68323	2061
842.71289	2021
842.74261	2032
842.77228	2079
842.802	2038
842.83167	2034
842.86133	2039
842.89105	2027
842.92072	2067
842.95038	2042
842.9801	2059
843.00977	2039
843.03943	2064
843.06915	2050
843.09882	2038
843.12848	2003
843.15814	2000
843.18781	2066
843.21747	2041
843.24719	2040
843.27686	2041
843.30652	2060
843.33618	2041
843.36584	2037
843.39551	2046
843.42517	2026
843.45483	2010
843.4845	2030
843.51416	2030
843.54382	2083
843.57349	2002
843.60315	1991
843.63275	2048
843.66241	2049
843.69208	2071
843.72174	2029
843.7514	2023
843.78107	2033
843.81067	2048
843.84033	2028
843.87	2053
843.8996	2017
843.92926	2030
843.95892	2035
843.98853	2056
844.01819	1995
844.04785	2057
844.07745	2060
844.10712	2053
844.13672	2047
844.16638	2042
844.19598	2034
844.22565	2014
844.25525	2010
844.28491	2032
844.31451	2063
844.34418	2052
844.37378	2030
844.40338	2053
844.43304	2051
844.46265	2020
844.49225	2008
844.52191	2054
844.55151	2059
844.58112	2051
844.61072	2048
844.64038	2041
844.66998	2052
844.69958	2034
844.72919	2021
844.75879	2021
844.78839	2023
844.81799	2040
844.84766	2039
844.87726	2043
844.90686	2054
844.93646	2037
844.96606	2042
844.99567	2009
845.02527	2069
845.05487	2061
845.08441	2016
845.11401	2027
845.14362	2008
845.17322	2037
845.20282	2027
845.23242	2072
845.26202	2026
845.29156	2014
845.32117	2008
845.35077	2037
845.38031	2026
845.40991	2061
845.43951	2035
845.46912	2058
845.49866	2068
845.52826	2062
845.5578	2054
845.5874	2075
845.617	2056
845.64655	2059
845.67615	2040
845.70569	2047
845.73529	2023
845.76483	2036
845.79437	2069
845.82397	2073
845.85352	2024
845.88312	2064
845.91266	2036
845.9422	2059
845.9718	2067
846.00134	2023
846.03088	2078
846.06049	2074
846.09003	2049
846.11957	2070
846.14911	2047
846.17865	2058
846.20825	2029
846.23779	2055
846.26733	2046
846.29688	2054
846.32642	2026
846.35596	2056
846.3855	2055
846.41504	2044
846.44458	2049
846.47412	2027
846.50366	2056
846.5332	2033
846.56274	2027
846.59229	2054
846.62183	2020
846.65137	2045
846.68091	2049
846.71039	2047
846.73993	2077
846.76947	2060
846.79901	2019
846.82849	2062
846.85803	2042
846.88757	2059
846.91711	2052
846.94659	2042
846.97614	2074
847.00568	2052
847.03516	2030
847.0647	2052
847.09418	2069
847.12372	2034
847.1532	2038
847.18274	2088
847.21222	2038
847.24176	2060
847.27124	2058
847.30078	2038
847.33026	2054
847.35974	2075
847.38928	2031
847.41876	2021
847.4483	2016
847.47778	2045
847.50726	2062
847.53674	2043
847.56628	2065
847.59576	2035
847.62524	2066
847.65472	2047
847.6842	2039
847.71375	2060
847.74323	2034
847.77271	2091
847.80219	2013
847.83167	2029
847.86115	2031
847.89063	2109
847.9201	2068
847.94958	2092
847.97906	2097
848.00854	2045
848.03802	2016
848.0675	2091
848.09698	2048
848.12646	2048
848.15588	2045
848.18536	2051
848.21484	2058
848.24432	2032
848.2738	2035
848.30322	2089
848.3327	2061
848.36218	2040
848.3916	2062
848.42108	2070
848.45056	2063
848.47998	2039
848.50946	2032
848.53894	2033
848.56836	2068
848.59784	2054
848.62726	2055
848.65674	2082
848.68616	2054
848.71564	2082
848.74506	2054
848.77454	2033
848.80396	2068
848.83337	2072
848.86285	2048
848.89227	2062
848.92169	2058
848.95117	2063
848.98059	2060
849.01001	2067
849.03943	2084
849.06891	2072
849.09833	2039
849.12775	2055
849.15717	2088
849.18658	2058
849.216	2098
849.24548	2099
849.2749	2049
849.30432	2089
849.33374	2060
849.36316	2009
849.39258	2029
849.422	2066
849.45142	2012
849.48083	2087
849.51025	2058
849.53961	2063
849.56903	2031
849.59845	2042
849.62787	2037
849.65729	2061
849.68671	1981
849.71606	2056
849.74548	2076
849.7749	2060
849.80432	2037
849.83368	2080
849.8631	2023
849.89252	2079
849.92188	2080
849.95129	2077
849.98071	2056
850.01007	2054
850.03949	2048
850.06885	2061
850.09827	2082
850.12762	2052
850.15704	2039
850.1864	2098
850.21582	2040
850.24518	2057
850.27454	2039
850.30396	2046
850.33331	2051
850.36267	2043
850.39209	2054
850.42145	2070
850.45081	2027
850.48016	2040
850.50958	2057
850.53894	2046
850.5683	2060
850.59766	2084
850.62701	2050
850.65643	2049
850.68579	2082
850.71515	2099
850.74451	2095
850.77386	2053
850.80322	2039
850.83258	2075
850.86194	2056
850.8913	2057
850.92065	2024
850.95001	2045
850.97937	2074
851.00867	2088
851.03802	2067
851.06738	2052
851.09674	2096
851.1261	2084
851.15546	2062
851.18475	2052
851.21411	2026
851.24347	2079
851.27277	2078
851.30212	2069
851.33148	2088
851.36078	2092
851.39014	2099
851.41949	2085
851.44879	2052
851.47815	2104
851.50745	2050
851.5368	2119
851.5661	2089
851.59546	2071
851.62476	2049
851.65411	2081
851.68341	2051
851.71271	2077
851.74207	2080
851.77136	2098
851.80066	2050
851.83002	2056
851.85931	2079
851.88861	2074
851.91797	2084
851.94727	2101
851.97656	2072
852.00586	2137
852.03516	2047
852.06445	2090
852.09381	2057
852.12311	2069
852.1524	2062
852.1817	2069
852.211	2096
852.2403	2055
852.26959	2048
852.29889	2051
852.32819	2059
852.35748	2080
852.38678	2055
852.41608	2085
852.44531	2042
852.47461	2083
852.50391	2081
852.5332	2067
852.5625	2078
852.59174	2072
852.62103	2077
852.65033	2066
852.67963	2072
852.70886	2086
852.73816	2070
852.76746	2062
852.79669	2088
852.82599	2079
852.85522	2081
852.88452	2052
852.91382	2059
852.94305	2100
852.97235	2115
853.00159	2095
853.03088	2082
853.06012	2068
853.08936	2096
853.11865	2075
853.14789	2058
853.17719	2100
853.20642	2073
853.23566	2087
853.26489	2026
853.29419	2072
853.32343	2074
853.35266	2072
853.3819	2070
853.41119	2060
853.44043	2074
853.46967	2087
853.4989	2066
853.52814	2110
853.55737	2058
853.58661	2063
853.61584	2052
853.64508	2096
853.67432	2103
853.70355	2090
853.73279	2083
853.76202	2083
853.79126	2073
853.8205	2065
853.84973	2118
853.87897	2049
853.9082	2046
853.93738	2077
853.96661	2080
853.99585	2090
854.02509	2130
854.05432	2090
854.0835	2132
854.11273	2122
854.14197	2097
854.17114	2053
854.20038	2085
854.22955	2065
854.25879	2076
854.28802	2093
854.3172	2084
854.34644	2052
854.37561	2083
854.40485	2076
854.43402	2040
854.46326	2100
854.49243	2093
854.52161	2102
854.55084	2095
854.58002	2042
854.60919	2097
854.63843	2074
854.6676	2065
854.69678	2117
854.72601	2120
854.75519	2072
854.78436	2077
854.81354	2087
854.84271	2080
854.87189	2097
854.90112	2092
854.9303	2082
854.95947	2074
854.98865	2047
855.01782	2087
855.047	2042
855.07617	2071
855.10535	2095
855.13452	2109
855.1637	2053
855.19287	2116
855.22205	2083
855.25116	2058
855.28033	2089
855.30951	2096
855.33868	2098
855.36786	2035
855.39703	2095
855.42615	2065
855.45532	2066
855.4845	2102
855.51361	2097
855.54279	2061
855.57196	2071
855.60107	2093
855.63025	2126
855.65936	2108
855.68854	2100
855.71771	2108
855.74683	2099
855.776	2086
855.80511	2082
855.83423	2100
855.8634	2117
855.89252	2086
855.92169	2099
855.95081	2076
855.97992	2130
856.00909	2058
856.03821	2125
856.06732	2136
856.0965	2080
856.12561	2057
856.15472	2072
856.18384	2101
856.21295	2063
856.24213	2083
856.27124	2118
856.30035	2090
856.32947	2079
856.35858	2101
856.3877	2100
856.41681	2074
856.44592	2130
856.47504	2103
856.50415	2126
856.53326	2088
856.56238	2085
856.59149	2070
856.62061	2151
856.64972	2113
856.67877	2144
856.70789	2108
856.737	2085
856.76611	2136
856.79517	2133
856.82428	2100
856.85339	2093
856.88251	2145
856.91156	2138
856.94067	2098
856.96979	2120
856.99884	2081
857.02795	2058
857.05701	2150
857.08612	2106
857.11517	2151
857.14429	2122
857.17334	2090
857.20245	2142
857.23151	2123
857.26062	2124
857.28967	2128
857.31873	2103
857.34784	2099
857.37689	2148
857.40594	2142
857.43506	2091
857.46411	2169
857.49316	2120
857.52222	2119
857.55133	2111
857.58038	2112
857.60944	2110
857.63849	2126
857.66754	2138
857.69659	2120
857.72565	2133
857.7547	2106
857.78375	2149
857.81281	2138
857.84186	2101
857.87091	2121
857.89996	2153
857.92902	2128
857.95807	2153
857.98712	2123
858.01617	2132
858.04523	2130
858.07428	2138
858.10327	2111
858.13232	2138
858.16138	2122
858.19043	2159
858.21942	2122
858.24847	2137
858.27753	2119
858.30652	2141
858.33557	2142
858.36456	2156
858.39362	2137
858.42267	2087
858.45166	2095
858.48071	2073
858.5097	2134
858.53876	2137
858.56775	2098
858.59674	2140
858.62579	2108
858.65479	2116
858.68384	2117
858.71283	2121
858.74182	2124
858.77087	2141
858.79987	2128
858.82886	2108
858.85785	2167
858.8869	2120
858.91589	2117
858.94489	2127
858.97388	2164
859.00287	2144
859.03186	2154
859.06085	2158
859.08984	2116
859.1189	2089
859.14789	2135
859.17688	2149
859.20587	2148
859.2348	2151
859.26379	2127
859.29279	2131
859.32178	2139
859.35077	2148
859.37976	2141
859.40875	2157
859.43774	2156
859.46667	2163
859.49567	2159
859.52466	2138
859.55365	2119
859.58258	2169
859.61157	2140
859.64056	2161
859.66949	2142
859.69849	2144
859.72742	2101
859.75641	2151
859.7854	2136
859.81433	2144
859.84332	2171
859.87225	2191
859.90118	2166
859.93018	2112
859.95911	2210
859.9881	2154
860.01703	2174
860.04596	2146
860.07495	2123
860.10388	2160
860.13281	2154
860.1618	2131
860.19073	2164
860.21967	2203
860.2486	2165
860.27753	2126
860.30652	2191
860.33545	2136
860.36438	2225
860.39331	2175
860.42224	2146
860.45117	2161
860.4801	2157
860.50903	2178
860.53796	2110
860.56689	2167
860.59583	2150
860.62476	2176
860.65369	2212
860.68262	2187
860.71149	2141
860.74042	2157
860.76935	2121
860.79828	2207
860.82721	2177
860.85608	2123
860.88501	2205
860.91394	2186
860.94287	2171
860.97174	2163
861.00067	2134
861.02954	2158
861.05847	2178
861.0874	2193
861.11627	2176
861.1452	2201
861.17407	2182
861.203	2210
861.23187	2212
861.2608	2203
861.28967	2175
861.31854	2200
861.34747	2148
861.37634	2202
861.40521	2234
861.43414	2197
861.46301	2197
861.49188	2175
861.52075	2191
861.54968	2153
861.57855	2179
861.60742	2167
861.63629	2218
861.66516	2184
861.69403	2185
861.72296	2231
861.75183	2215
861.7807	2214
861.80957	2210
861.83844	2166
861.86731	2220
861.89618	2168
861.92505	2181
861.95386	2188
861.98273	2219
862.0116	2205
862.04047	2231
862.06934	2200
862.09821	2250
862.12701	2185
862.15588	2243
862.18475	2205
862.21362	2173
862.24243	2226
862.2713	2184
862.30017	2176
862.32898	2216
862.35785	2225
862.38666	2230
862.41553	2216
862.4444	2219
862.47321	2280
862.50208	2260
862.53088	2240
862.55969	2261
862.58856	2230
862.61737	2284
862.64624	2244
862.67505	2247
862.70386	2260
862.73273	2268
862.76154	2237
862.79034	2212
862.81921	2281
862.84802	2234
862.87683	2245
862.90564	2267
862.93445	2176
862.96326	2240
862.99213	2238
863.02094	2206
863.04974	2291
863.07855	2287
863.10736	2249
863.13617	2224
863.16498	2278
863.19379	2312
863.2226	2263
863.2514	2238
863.28021	2213
863.30896	2257
863.33777	2292
863.36658	2307
863.39539	2292
863.42419	2280
863.453	2281
863.48175	2252
863.51056	2248
863.53937	2278
863.56812	2256
863.59692	2281
863.62573	2176
863.65448	2262
863.68329	2293
863.71204	2258
863.74084	2297
863.76959	2339
863.7984	2338
863.82715	2244
863.85596	2309
863.8847	2256
863.91351	2295
863.94226	2289
863.97107	2297
863.99982	2309
864.02856	2293
864.05731	2326
864.08612	2350
864.11487	2343
864.14362	2280
864.17236	2257
864.20117	2281
864.22992	2298
864.25867	2294
864.28741	2354
864.31616	2287
864.34491	2320
864.37366	2355
864.4024	2328
864.43115	2345
864.4599	2334
864.48865	2352
864.5174	2365
864.54614	2318
864.57489	2322
864.60364	2309
864.63239	2330
864.66113	2330
864.68982	2384
864.71857	2333
864.74731	2382
864.77606	2380
864.80481	2328
864.8335	2330
864.86224	2358
864.89099	2387
864.91968	2374
864.94843	2378
864.97711	2381
865.00586	2354
865.03455	2373
865.06329	2378
865.09198	2338
865.12073	2375
865.14941	2368
865.17816	2366
865.20685	2395
865.2356	2433
865.26428	2373
865.29297	2400
865.32172	2405
865.3504	2396
865.37909	2418
