Date and Time:                Wed Jul 31 18:24:30.000 2024
Software Version:             4.32.30065.0
Temperature (C):              -80
Model:                        DU970P_BVF
Data Type:                    Counts
Acquisition Mode:             Accumulate
Trigger Mode:                 Internal
Exposure Time (secs):         10
Accumulate Cycle Time (secs): 10
Frequency (Hz):               0.1
Number of Accumulations:      30
Readout Mode:                 Full Vertical Binning
Horizontal binning:           1
Shutter Mode:                 Permanently OPEN
TTL level:                    High
Time to open:                 27 ms
Time to close:                27 ms
Extended Data Range:          off
Horizontally flipped:         false
Vertical Shift Speed (usecs): 4.88
Pixel Readout Rate (MHz):     0.05
Baseline Clamp:               ON
Clock Amplitude:              Normal
Output Amplifier:             Conventional
Serial Number:                28257
Pre-Amplifier Gain:           4.000000
Spurious Noise Filter Mode:   No Filter
Photon counted:               false
Data Averaging Filter Mode:   No Filter
KY328i:
Serial Number:                
Wavelength (nm):              842
Grating Groove Density (l/mm):1200
Grating Blaze:                500NM
Input Flipper Port:           Side
Output Flipper Port:          Direct



817.89807	11437
817.92865	11447
817.95923	11474
817.98981	11475
818.02039	11364
818.05096	11443
818.08154	11353
818.11212	11483
818.1427	11446
818.17328	11462
818.20386	11443
818.23444	11414
818.26501	11423
818.29559	11547
818.32617	11556
818.35675	11486
818.38733	11413
818.41785	11493
818.44843	11463
818.479	11529
818.50958	11440
818.54016	11511
818.57068	11498
818.60126	11481
818.63184	11482
818.66241	11352
818.69293	11484
818.72351	11468
818.75409	11322
818.78461	11554
818.81519	11531
818.84576	11488
818.87628	11594
818.90686	11475
818.93738	11488
818.96796	11633
818.99847	11470
819.02905	11499
819.05957	11459
819.09015	11597
819.12067	11560
819.15125	11512
819.18176	11477
819.21234	11460
819.24286	11555
819.27338	11601
819.30396	11523
819.33447	11573
819.36499	11492
819.39557	11568
819.42609	11581
819.4566	11631
819.48718	11598
819.5177	11443
819.54822	11543
819.57874	11591
819.60925	11736
819.63983	11471
819.67035	11595
819.70087	11531
819.73138	11642
819.7619	11646
819.79242	11510
819.82294	11604
819.85345	11592
819.88397	11598
819.91455	11621
819.94507	11674
819.97559	11540
820.0061	11559
820.03662	11649
820.06708	11584
820.0976	11668
820.12811	11614
820.15863	11757
820.18915	11557
820.21967	11623
820.25018	11554
820.2807	11717
820.31122	11642
820.34167	11592
820.37219	11704
820.40271	11712
820.43323	11639
820.46368	11623
820.4942	11664
820.52472	11656
820.55518	11645
820.58569	11584
820.61621	11715
820.64667	11511
820.67719	11744
820.7077	11903
820.73816	11666
820.76868	11681
820.79913	11550
820.82965	11470
820.86011	11700
820.89063	11689
820.92108	11724
820.9516	11517
820.98206	11655
821.01257	11593
821.04303	11675
821.07355	11685
821.104	11755
821.13446	11727
821.16498	11731
821.19543	11681
821.22589	11825
821.25641	11798
821.28687	11680
821.31732	11616
821.34784	11746
821.3783	11671
821.40875	11845
821.43921	11689
821.46967	11664
821.50018	11697
821.53064	11908
821.5611	11662
821.59155	11652
821.62201	11674
821.65247	11675
821.68292	11694
821.71338	11810
821.74384	11696
821.77429	11784
821.80475	11832
821.83521	11711
821.86566	11636
821.89612	11759
821.92657	11785
821.95703	11806
821.98749	11731
822.01794	11650
822.0484	11840
822.07886	11778
822.10931	11879
822.13971	11696
822.17017	11763
822.20062	11778
822.23108	11810
822.26154	11816
822.29193	11640
822.32239	11804
822.35284	11716
822.38324	11767
822.4137	11852
822.44415	11896
822.47455	11745
822.505	11789
822.53546	11802
822.56586	11711
822.59631	11844
822.62671	11967
822.65717	11778
822.68756	11885
822.71802	11889
822.74841	11860
822.77887	11848
822.80927	11866
822.83972	11883
822.87012	11920
822.90057	11837
822.93097	11921
822.96136	11836
822.99182	11879
823.02222	11827
823.05261	11989
823.08307	11856
823.11346	11839
823.14386	11941
823.17432	11791
823.20471	11856
823.23511	11825
823.2655	11914
823.2959	11848
823.32635	11921
823.35675	12032
823.38715	11877
823.41754	11825
823.44794	11914
823.47833	12010
823.50873	11855
823.53912	11966
823.56952	11981
823.59991	11932
823.63031	11918
823.66071	11876
823.6911	11928
823.7215	12026
823.75189	11991
823.78229	11997
823.81268	11998
823.84308	11840
823.87347	12029
823.90387	11992
823.9342	12054
823.9646	12043
823.995	12069
824.02539	12090
824.05579	12052
824.08612	12063
824.11652	12185
824.14691	12198
824.17725	12186
824.20764	12208
824.23804	12107
824.26837	12045
824.29877	12192
824.32916	12187
824.3595	11956
824.38989	12235
824.42023	12142
824.45062	12188
824.48102	12267
824.51135	12149
824.54175	12240
824.57208	12239
824.60242	12264
824.63281	12251
824.66315	12317
824.69354	12114
824.72388	12229
824.75421	12328
824.78461	12143
824.81494	12296
824.84528	12382
824.87567	12191
824.90601	12401
824.93634	12374
824.96674	12251
824.99707	12247
825.0274	12361
825.05774	12507
825.08807	12464
825.11847	12337
825.1488	12394
825.17914	12263
825.20947	12465
825.23981	12503
825.27014	12457
825.30048	12469
825.33081	12463
825.36115	12479
825.39148	12365
825.42181	12446
825.45215	12376
825.48248	12534
825.51282	12337
825.54315	12422
825.57349	12458
825.60382	12419
825.63416	12554
825.66449	12494
825.69482	12553
825.7251	12485
825.75543	12326
825.78577	12671
825.8161	12560
825.84637	12584
825.87671	12492
825.90704	12571
825.93738	12478
825.96765	12513
825.99799	12675
826.02832	12644
826.05859	12497
826.08893	12657
826.11926	12400
826.14954	12439
826.17987	12623
826.21014	12505
826.24048	12541
826.27075	12515
826.30109	12632
826.33136	12610
826.36169	12637
826.39197	12539
826.4223	12678
826.45258	12568
826.48285	12575
826.51318	12427
826.54346	12541
826.57373	12626
826.60406	12579
826.63434	12454
826.66461	12485
826.69495	12491
826.72522	12573
826.75549	12466
826.78577	12695
826.8161	12544
826.84637	12526
826.87665	12582
826.90692	12427
826.93719	12554
826.96747	12645
826.99774	12430
827.02808	12542
827.05835	12539
827.08862	12474
827.1189	12518
827.14917	12631
827.17944	12546
827.20972	12537
827.23999	12733
827.27026	12593
827.30048	12499
827.33075	12552
827.36102	12491
827.3913	12512
827.42157	12582
827.45184	12629
827.48212	12617
827.51233	12436
827.5426	12621
827.57288	12746
827.60315	12712
827.63342	12569
827.66364	12775
827.69391	12636
827.72418	12657
827.75439	12589
827.78467	12616
827.81494	12639
827.84515	12652
827.87543	12666
827.90564	12721
827.93591	12823
827.96613	12731
827.9964	12668
828.02661	12647
828.05688	12500
828.0871	12640
828.11737	12665
828.14758	12634
828.17786	12670
828.20807	12693
828.23834	12599
828.26855	12575
828.29877	12816
828.32904	12590
828.35925	12630
828.38947	12658
828.41968	12735
828.44995	12481
828.48016	12777
828.51038	12690
828.54059	12705
828.57086	12666
828.60107	12771
828.63129	12703
828.6615	12703
828.69171	12750
828.72192	12570
828.75214	12683
828.78235	12818
828.81262	12763
828.84283	12652
828.87305	12593
828.90326	12633
828.93347	12707
828.96362	12765
828.99384	12778
829.02405	12716
829.05426	12804
829.08447	12695
829.11469	12635
829.1449	12833
829.17511	12631
829.20532	12690
829.23547	12653
829.26569	12578
829.2959	12740
829.32611	12692
829.35626	12789
829.38647	12772
829.41669	12845
829.4469	12731
829.47705	12717
829.50726	12673
829.53741	12478
829.56763	12803
829.59784	12791
829.62799	12644
829.6582	12745
829.68835	12770
829.71857	12702
829.74872	12622
829.77893	12652
829.80908	12886
829.83929	12653
829.86945	12862
829.89966	12784
829.92981	12862
829.95996	12807
829.99017	12743
830.02032	12849
830.05048	12827
830.08069	12688
830.11084	12742
830.14099	12755
830.1712	12834
830.20135	12825
830.23151	12727
830.26166	12777
830.29181	12752
830.32202	12851
830.35217	12658
830.38232	12893
830.41248	12843
830.44263	12863
830.47278	12903
830.50293	12794
830.53308	12742
830.56323	12934
830.59338	12824
830.62354	12685
830.65369	12720
830.68384	12935
830.71399	12719
830.74414	12888
830.77429	12905
830.80444	12789
830.83459	13004
830.86475	12941
830.89484	13003
830.92499	12963
830.95514	12911
830.98529	12837
831.01544	12896
831.04553	12900
831.07568	12928
831.10583	13156
831.13593	12803
831.16608	12960
831.19623	13019
831.22632	12922
831.25647	12968
831.28662	12934
831.31671	13129
831.34686	12967
831.37695	13008
831.4071	13042
831.43719	12970
831.46735	13082
831.49744	13073
831.52759	12921
831.55768	12964
831.58783	13090
831.61792	13006
831.64801	12941
831.67816	13079
831.70825	13081
831.73834	13229
831.76849	13105
831.79858	13074
831.82867	13016
831.85876	13185
831.88892	13217
831.91901	13064
831.9491	13203
831.97919	13238
832.00934	13212
832.03943	13227
832.06952	13294
832.09961	13312
832.1297	13340
832.15979	13342
832.18988	13484
832.21997	13373
832.25006	13460
832.28015	13328
832.31024	13415
832.34033	13306
832.37042	13339
832.40051	13348
832.4306	13525
832.46069	13406
832.49078	13327
832.52087	13420
832.5509	13440
832.58099	13305
832.61108	13355
832.64117	13528
832.67126	13478
832.70129	13609
832.73138	13280
832.76147	13387
832.79156	13423
832.82159	13336
832.85168	13553
832.88171	13333
832.9118	13474
832.94189	13262
832.97192	13443
833.00201	13250
833.03204	13364
833.06213	13191
833.09216	13194
833.12225	13333
833.15228	13263
833.18237	13204
833.2124	13196
833.24249	13179
833.27252	13063
833.30261	13164
833.33264	13143
833.36267	12977
833.39276	13230
833.42279	13071
833.45282	13147
833.48291	12971
833.51294	12933
833.54297	13149
833.573	12923
833.60303	12983
833.63312	12950
833.66315	12953
833.69318	13043
833.72321	12919
833.75323	12784
833.78326	12911
833.81329	12841
833.84332	12888
833.87341	12920
833.90344	13024
833.93347	12885
833.9635	12925
833.99353	12906
834.0235	12673
834.05353	12838
834.08356	12849
834.11359	12768
834.14362	12848
834.17365	12790
834.20367	12744
834.2337	12770
834.26367	12864
834.2937	12780
834.32373	12841
834.35376	12679
834.38373	12795
834.41376	12756
834.44379	12574
834.47382	12780
834.50378	12692
834.53381	12724
834.56378	12644
834.59381	12696
834.62384	12751
834.65381	12742
834.68384	12742
834.71381	12842
834.74384	12809
834.7738	12799
834.80383	12587
834.8338	12773
834.86383	12804
834.8938	12839
834.92383	12707
834.9538	12803
834.98376	12754
835.01379	12779
835.04376	12701
835.07373	12842
835.10376	12894
835.13373	13019
835.1637	12822
835.19366	12952
835.22369	12691
835.25366	12791
835.28363	12816
835.3136	12763
835.34357	12920
835.37354	12713
835.4035	12879
835.43353	12691
835.4635	12842
835.49347	12760
835.52344	12823
835.55341	12890
835.58337	12731
835.61334	12733
835.64331	12910
835.67328	12910
835.70325	12892
835.73315	12961
835.76312	12888
835.79309	12921
835.82306	12779
835.85303	12919
835.883	12911
835.91296	13005
835.94287	12912
835.97284	12886
836.00281	12882
836.03278	12831
836.06268	12924
836.09265	12970
836.12262	12907
836.15253	13035
836.1825	12965
836.2124	13044
836.24237	13029
836.27234	13014
836.30225	13138
836.33221	13011
836.36212	13101
836.39209	12958
836.422	13023
836.45197	12875
836.48187	13168
836.51184	12943
836.54175	12945
836.57166	12894
836.60162	12944
836.63153	13132
836.66144	13042
836.69141	12995
836.72131	12953
836.75122	12986
836.78119	12953
836.8111	12924
836.841	13104
836.87091	12995
836.90082	12999
836.93079	13198
836.96069	13079
836.9906	13003
837.02051	13141
837.05042	12999
837.08032	13211
837.11023	13126
837.14014	13249
837.17004	13141
837.19995	13219
837.22986	13257
837.25977	13205
837.28967	13295
837.31958	13211
837.34949	13250
837.37939	13257
837.4093	13275
837.43915	13236
837.46906	13311
837.49896	13454
837.52887	13454
837.55878	13266
837.58862	13255
837.61853	13484
837.64844	13362
837.67834	13319
837.70819	13498
837.7381	13383
837.76801	13396
837.79785	13653
837.82776	13627
837.8576	13553
837.88751	13558
837.91736	13570
837.94727	13501
837.97717	13456
838.00702	13637
838.03687	13701
838.06677	13403
838.09662	13687
838.12653	13703
838.15637	13755
838.18628	13769
838.21613	13617
838.24597	13743
838.27588	13777
838.30573	13745
838.33557	13862
838.36542	14014
838.39532	13611
838.42517	13907
838.45502	13904
838.48486	13917
838.51471	13907
838.54462	14081
838.57446	13981
838.60431	14070
838.63416	14156
838.664	14122
838.69385	14222
838.72369	14019
838.75354	14372
838.78339	14282
838.81323	14299
838.84308	14537
838.87292	14523
838.90277	14425
838.93262	14416
838.96246	14270
838.99231	14575
839.02216	14504
839.05194	14445
839.08179	14499
839.11163	14397
839.14148	14613
839.17126	14595
839.20111	14539
839.23096	14748
839.2608	14591
839.29059	14876
839.32043	14787
839.35028	14619
839.38007	14793
839.40991	14689
839.4397	14609
839.46954	14671
839.49939	14836
839.52917	14926
839.55902	14865
839.58881	14827
839.61865	14838
839.64844	14962
839.67822	14942
839.70807	14987
839.73785	14836
839.7677	14962
839.79749	14917
839.82727	14791
839.85712	15101
839.8869	14807
839.91669	14958
839.94647	15025
839.97632	14962
840.0061	15024
840.03589	14877
840.06567	14948
840.09552	15012
840.12531	14883
840.15509	15032
840.18488	14960
840.21466	15019
840.24445	15194
840.27423	15106
840.30402	14954
840.3338	15016
840.36359	15010
840.39337	14840
840.42316	14846
840.45294	14875
840.48273	14896
840.51251	14921
840.5423	14964
840.57208	14824
840.60181	14724
840.63159	14935
840.66138	14687
840.69116	14869
840.72095	14783
840.75067	14724
840.78046	14896
840.81024	14712
840.84003	14722
840.86975	14493
840.89954	14579
840.92926	14738
840.95905	14766
840.98883	14397
841.01855	14682
841.04834	14542
841.07806	14732
841.10785	14589
841.13757	14727
841.16736	14484
841.19708	14448
841.22687	14658
841.25659	14468
841.28638	14464
841.3161	14577
841.34583	14452
841.37561	14555
841.40533	14531
841.43506	14234
841.46484	14417
841.49457	14472
841.52429	14263
841.55402	14396
841.5838	14523
841.61353	14398
841.64325	14293
841.67297	14357
841.7027	14462
841.73242	14293
841.76215	14468
841.79193	14199
841.82166	14479
841.85138	14325
841.8811	14265
841.91083	14257
841.94055	14307
841.97028	14238
842	14420
842.02966	14387
842.05939	14369
842.08911	14321
842.11884	14399
842.14856	14271
842.17828	14334
842.20801	14302
842.23767	14383
842.2674	14433
842.29712	14411
842.32684	14382
842.35651	14337
842.38623	14368
842.41595	14299
842.44562	14316
842.47534	14453
842.50507	14395
842.53473	14472
842.56445	14378
842.59412	14356
842.62384	14267
842.6535	14441
842.68323	14429
842.71289	14636
842.74261	14485
842.77228	14495
842.802	14299
842.83167	14380
842.86133	14518
842.89105	14276
842.92072	14297
842.95038	14453
842.9801	14368
843.00977	14247
843.03943	14448
843.06915	14320
843.09882	14324
843.12848	14499
843.15814	14325
843.18781	14641
843.21747	14444
843.24719	14394
843.27686	14647
843.30652	14436
843.33618	14493
843.36584	14284
843.39551	14531
843.42517	14488
843.45483	14402
843.4845	14569
843.51416	14465
843.54382	14546
843.57349	14594
843.60315	14437
843.63275	14543
843.66241	14463
843.69208	14563
843.72174	14565
843.7514	14479
843.78107	14380
843.81067	14471
843.84033	14583
843.87	14529
843.8996	14661
843.92926	14801
843.95892	14749
843.98853	14449
844.01819	14826
844.04785	14661
844.07745	14512
844.10712	14520
844.13672	14681
844.16638	14520
844.19598	14537
844.22565	14620
844.25525	14608
844.28491	14389
844.31451	14600
844.34418	14546
844.37378	14441
844.40338	14636
844.43304	14700
844.46265	14497
844.49225	14658
844.52191	14513
844.55151	14605
844.58112	14725
844.61072	14674
844.64038	14571
844.66998	14736
844.69958	14651
844.72919	14649
844.75879	14494
844.78839	14677
844.81799	14544
844.84766	14636
844.87726	14740
844.90686	14726
844.93646	14574
844.96606	14569
844.99567	14558
845.02527	14601
845.05487	14641
845.08441	14517
845.11401	14516
845.14362	14542
845.17322	14516
845.20282	14524
845.23242	14540
845.26202	14507
845.29156	14579
845.32117	14390
845.35077	14454
845.38031	14593
845.40991	14477
845.43951	14473
845.46912	14528
845.49866	14265
845.52826	14375
845.5578	14481
845.5874	14474
845.617	14316
845.64655	14363
845.67615	14518
845.70569	14412
845.73529	14404
845.76483	14402
845.79437	14377
845.82397	14392
845.85352	14380
845.88312	14367
845.91266	14305
845.9422	14169
845.9718	14593
846.00134	14284
846.03088	14350
846.06049	14305
846.09003	14502
846.11957	14395
846.14911	14234
846.17865	14462
846.20825	14474
846.23779	14216
846.26733	14460
846.29688	14103
846.32642	14282
846.35596	14142
846.3855	14185
846.41504	14271
846.44458	14340
846.47412	14294
846.50366	14199
846.5332	14231
846.56274	14340
846.59229	14197
846.62183	14198
846.65137	14221
846.68091	14400
846.71039	14318
846.73993	14301
846.76947	14220
846.79901	14267
846.82849	14250
846.85803	14309
846.88757	14160
846.91711	14364
846.94659	14148
846.97614	14225
847.00568	14406
847.03516	14295
847.0647	14146
847.09418	14260
847.12372	13972
847.1532	14486
847.18274	14160
847.21222	14362
847.24176	14344
847.27124	14178
847.30078	14198
847.33026	14175
847.35974	14209
847.38928	14304
847.41876	14260
847.4483	14262
847.47778	14249
847.50726	14193
847.53674	14173
847.56628	14269
847.59576	14304
847.62524	14446
847.65472	14230
847.6842	14415
847.71375	14198
847.74323	14309
847.77271	14070
847.80219	14200
847.83167	14345
847.86115	14134
847.89063	14221
847.9201	14117
847.94958	14078
847.97906	14267
848.00854	14246
848.03802	14260
848.0675	14044
848.09698	14180
848.12646	14076
848.15588	14286
848.18536	14217
848.21484	14317
848.24432	14235
848.2738	14084
848.30322	14218
848.3327	14133
848.36218	14339
848.3916	14259
848.42108	14231
848.45056	14375
848.47998	14268
848.50946	14273
848.53894	14534
848.56836	14176
848.59784	14271
848.62726	14253
848.65674	14216
848.68616	14431
848.71564	14261
848.74506	14162
848.77454	14248
848.80396	14281
848.83337	14088
848.86285	14232
848.89227	14269
848.92169	14281
848.95117	14287
848.98059	14213
849.01001	14166
849.03943	14263
849.06891	14406
849.09833	14196
849.12775	14259
849.15717	14369
849.18658	14286
849.216	14208
849.24548	14311
849.2749	14189
849.30432	14145
849.33374	14254
849.36316	14231
849.39258	14089
849.422	14344
849.45142	14331
849.48083	14148
849.51025	14114
849.53961	14232
849.56903	14328
849.59845	14444
849.62787	14318
849.65729	14333
849.68671	14238
849.71606	14286
849.74548	14230
849.7749	14256
849.80432	14234
849.83368	14271
849.8631	14418
849.89252	14549
849.92188	14337
849.95129	14512
849.98071	14131
850.01007	14398
850.03949	14315
850.06885	14509
850.09827	14356
850.12762	14151
850.15704	14104
850.1864	14192
850.21582	14420
850.24518	14451
850.27454	14289
850.30396	14452
850.33331	14432
850.36267	14554
850.39209	14369
850.42145	14364
850.45081	14412
850.48016	14343
850.50958	14468
850.53894	14404
850.5683	14354
850.59766	14501
850.62701	14190
850.65643	14279
850.68579	14505
850.71515	14414
850.74451	14368
850.77386	14440
850.80322	14572
850.83258	14426
850.86194	14555
850.8913	14500
850.92065	14327
850.95001	14566
850.97937	14489
851.00867	14583
851.03802	14269
851.06738	14265
851.09674	14537
851.1261	14439
851.15546	14312
851.18475	14445
851.21411	14299
851.24347	14423
851.27277	14436
851.30212	14596
851.33148	14432
851.36078	14379
851.39014	14319
851.41949	14423
851.44879	14342
851.47815	14546
851.50745	14506
851.5368	14382
851.5661	14599
851.59546	14632
851.62476	14460
851.65411	14531
851.68341	14318
851.71271	14361
851.74207	14563
851.77136	14648
851.80066	14674
851.83002	14637
851.85931	14695
851.88861	14505
851.91797	14679
851.94727	14361
851.97656	14503
852.00586	14473
852.03516	14587
852.06445	14216
852.09381	14517
852.12311	14529
852.1524	14497
852.1817	14668
852.211	14714
852.2403	14558
852.26959	14479
852.29889	14522
852.32819	14504
852.35748	14490
852.38678	14277
852.41608	14704
852.44531	14739
852.47461	14364
852.50391	14392
852.5332	14458
852.5625	14368
852.59174	14294
852.62103	14476
852.65033	14432
852.67963	14451
852.70886	14461
852.73816	14739
852.76746	14512
852.79669	14665
852.82599	14539
852.85522	14413
852.88452	14538
852.91382	14259
852.94305	14439
852.97235	14446
853.00159	14485
853.03088	14396
853.06012	14563
853.08936	14654
853.11865	14616
853.14789	14443
853.17719	14681
853.20642	14592
853.23566	14781
853.26489	14644
853.29419	14358
853.32343	14638
853.35266	14463
853.3819	14707
853.41119	14599
853.44043	14664
853.46967	14655
853.4989	14595
853.52814	14458
853.55737	14574
853.58661	14656
853.61584	14604
853.64508	14588
853.67432	14499
853.70355	14470
853.73279	14550
853.76202	14556
853.79126	14536
853.8205	14445
853.84973	14635
853.87897	14747
853.9082	14619
853.93738	14553
853.96661	14603
853.99585	14614
854.02509	14692
854.05432	14612
854.0835	14514
854.11273	14471
854.14197	14649
854.17114	14624
854.20038	14540
854.22955	14667
854.25879	14544
854.28802	14465
854.3172	14743
854.34644	14492
854.37561	14662
854.40485	14478
854.43402	14507
854.46326	14380
854.49243	14672
854.52161	14735
854.55084	14596
854.58002	14589
854.60919	14677
854.63843	14686
854.6676	14612
854.69678	14425
854.72601	14617
854.75519	14714
854.78436	14501
854.81354	14590
854.84271	14573
854.87189	14487
854.90112	14636
854.9303	14713
854.95947	14719
854.98865	14467
855.01782	14656
855.047	14474
855.07617	14566
855.10535	14599
855.13452	14625
855.1637	14496
855.19287	14628
855.22205	14667
855.25116	14501
855.28033	14559
855.30951	14516
855.33868	14770
855.36786	14715
855.39703	14832
855.42615	14759
855.45532	14752
855.4845	14706
855.51361	14716
855.54279	14666
855.57196	14569
855.60107	14604
855.63025	14624
855.65936	14796
855.68854	14475
855.71771	14821
855.74683	14673
855.776	14537
855.80511	14682
855.83423	14738
855.8634	14810
855.89252	14997
855.92169	14861
855.95081	14860
855.97992	14653
856.00909	14773
856.03821	14773
856.06732	14846
856.0965	14829
856.12561	14825
856.15472	14643
856.18384	14729
856.21295	14732
856.24213	14892
856.27124	14927
856.30035	14899
856.32947	14922
856.35858	14786
856.3877	14866
856.41681	14817
856.44592	14894
856.47504	14884
856.50415	14850
856.53326	15042
856.56238	14857
856.59149	14621
856.62061	14962
856.64972	14904
856.67877	14851
856.70789	14951
856.737	14958
856.76611	15054
856.79517	14911
856.82428	15079
856.85339	14797
856.88251	14941
856.91156	15017
856.94067	14905
856.96979	14908
856.99884	14853
857.02795	15159
857.05701	14950
857.08612	14932
857.11517	14835
857.14429	14771
857.17334	15027
857.20245	15089
857.23151	14813
857.26062	14976
857.28967	15080
857.31873	14992
857.34784	14900
857.37689	15186
857.40594	14979
857.43506	14997
857.46411	15090
857.49316	15199
857.52222	15171
857.55133	15131
857.58038	15313
857.60944	15071
857.63849	15017
857.66754	15193
857.69659	15182
857.72565	15284
857.7547	15028
857.78375	15168
857.81281	15131
857.84186	15143
857.87091	15146
857.89996	15252
857.92902	15220
857.95807	15370
857.98712	15110
858.01617	15162
858.04523	15381
858.07428	15305
858.10327	15306
858.13232	15003
858.16138	15238
858.19043	15378
858.21942	15180
858.24847	15140
858.27753	15310
858.30652	15352
858.33557	15219
858.36456	15327
858.39362	15264
858.42267	15338
858.45166	15353
858.48071	15396
858.5097	15312
858.53876	15402
858.56775	15488
858.59674	15398
858.62579	15477
858.65479	15230
858.68384	15571
858.71283	15396
858.74182	15447
858.77087	15397
858.79987	15573
858.82886	15347
858.85785	15535
858.8869	15495
858.91589	15529
858.94489	15667
858.97388	15475
859.00287	15505
859.03186	15521
859.06085	15709
859.08984	15405
859.1189	15731
859.14789	15572
859.17688	15528
859.20587	15671
859.2348	15497
859.26379	15740
859.29279	15615
859.32178	15666
859.35077	15484
859.37976	15739
859.40875	15745
859.43774	15577
859.46667	15724
859.49567	15817
859.52466	15698
859.55365	15659
859.58258	15559
859.61157	15739
859.64056	15662
859.66949	15837
859.69849	15540
859.72742	15795
859.75641	15856
859.7854	15769
859.81433	15778
859.84332	15758
859.87225	15953
859.90118	15893
859.93018	15954
859.95911	15773
859.9881	15804
860.01703	15767
860.04596	15924
860.07495	15931
860.10388	15967
860.13281	16062
860.1618	15946
860.19073	15751
860.21967	15797
860.2486	16128
860.27753	15848
860.30652	16059
860.33545	15726
860.36438	15804
860.39331	16012
860.42224	15865
860.45117	16187
860.4801	16037
860.50903	16082
860.53796	15942
860.56689	16139
860.59583	15827
860.62476	15991
860.65369	16030
860.68262	16188
860.71149	16177
860.74042	16184
860.76935	16200
860.79828	15957
860.82721	16036
860.85608	15862
860.88501	16139
860.91394	16212
860.94287	16052
860.97174	16048
861.00067	16175
861.02954	16042
861.05847	16167
861.0874	16148
861.11627	16151
861.1452	16091
861.17407	16280
861.203	16125
861.23187	15941
861.2608	16195
861.28967	16308
861.31854	16163
861.34747	16008
861.37634	16102
861.40521	16071
861.43414	16352
861.46301	16292
861.49188	16336
861.52075	16151
861.54968	16363
861.57855	16430
861.60742	16452
861.63629	16299
861.66516	16482
861.69403	16382
861.72296	16327
861.75183	16515
861.7807	16584
861.80957	16608
861.83844	16449
861.86731	16543
861.89618	16447
861.92505	16543
861.95386	16657
861.98273	16740
862.0116	16412
862.04047	16585
862.06934	16769
862.09821	16720
862.12701	16747
862.15588	16682
862.18475	16899
862.21362	16694
862.24243	16561
862.2713	16888
862.30017	16700
862.32898	17080
862.35785	16863
862.38666	16840
862.41553	16947
862.4444	17086
862.47321	16872
862.50208	16885
862.53088	17014
862.55969	16801
862.58856	17101
862.61737	17124
862.64624	17250
862.67505	17033
862.70386	17259
862.73273	17110
862.76154	16989
862.79034	17055
862.81921	17224
862.84802	16995
862.87683	17364
862.90564	17242
862.93445	17174
862.96326	17204
862.99213	17092
863.02094	17204
863.04974	17318
863.07855	17372
863.10736	17010
863.13617	17519
863.16498	17375
863.19379	17239
863.2226	17573
863.2514	17600
863.28021	17318
863.30896	17448
863.33777	17374
863.36658	17510
863.39539	17394
863.42419	17476
863.453	17461
863.48175	17574
863.51056	17656
863.53937	17464
863.56812	17735
863.59692	17568
863.62573	17734
863.65448	17735
863.68329	17712
863.71204	17644
863.74084	17826
863.76959	17861
863.7984	17980
863.82715	17761
863.85596	17755
863.8847	17653
863.91351	18075
863.94226	18043
863.97107	18059
863.99982	17947
864.02856	18182
864.05731	18123
864.08612	18165
864.11487	18119
864.14362	18448
864.17236	18403
864.20117	18164
864.22992	18235
864.25867	18571
864.28741	18323
864.31616	18541
864.34491	18747
864.37366	18627
864.4024	18779
864.43115	18375
864.4599	18458
864.48865	18773
864.5174	18759
864.54614	18725
864.57489	18675
864.60364	18923
864.63239	18884
864.66113	18772
864.68982	18948
864.71857	18686
864.74731	19131
864.77606	19047
864.80481	19130
864.8335	18902
864.86224	19005
864.89099	18893
864.91968	19139
864.94843	19156
864.97711	19082
865.00586	19258
865.03455	19215
865.06329	19124
865.09198	19122
865.12073	19384
865.14941	19319
865.17816	19138
865.20685	19198
865.2356	19368
865.26428	19362
865.29297	19727
865.32172	19463
865.3504	19491
865.37909	19925
