Date and Time:                Wed Jul 31 19:36:34.000 2024
Software Version:             4.32.30065.0
Temperature (C):              -80
Model:                        DU970P_BVF
Data Type:                    Counts
Acquisition Mode:             Accumulate
Trigger Mode:                 Internal
Exposure Time (secs):         2
Accumulate Cycle Time (secs): 2
Frequency (Hz):               0.5
Number of Accumulations:      6
Readout Mode:                 Full Vertical Binning
Horizontal binning:           1
Shutter Mode:                 Permanently OPEN
TTL level:                    High
Time to open:                 27 ms
Time to close:                27 ms
Extended Data Range:          off
Horizontally flipped:         false
Vertical Shift Speed (usecs): 4.88
Pixel Readout Rate (MHz):     0.05
Baseline Clamp:               ON
Clock Amplitude:              Normal
Output Amplifier:             Conventional
Serial Number:                28257
Pre-Amplifier Gain:           4.000000
Spurious Noise Filter Mode:   No Filter
Photon counted:               false
Data Averaging Filter Mode:   No Filter
KY328i:
Serial Number:                
Wavelength (nm):              842
Grating Groove Density (l/mm):1200
Grating Blaze:                500NM
Input Flipper Port:           Side
Output Flipper Port:          Direct



817.89807	1919
817.92865	1897
817.95923	1918
817.98981	1898
818.02039	1905
818.05096	1899
818.08154	1931
818.11212	1909
818.1427	1943
818.17328	1919
818.20386	1883
818.23444	1910
818.26501	1896
818.29559	1888
818.32617	1929
818.35675	1920
818.38733	1923
818.41785	1905
818.44843	1884
818.479	1901
818.50958	1886
818.54016	1948
818.57068	1929
818.60126	1915
818.63184	1924
818.66241	1887
818.69293	1929
818.72351	1907
818.75409	1916
818.78461	1904
818.81519	1902
818.84576	1909
818.87628	1924
818.90686	1909
818.93738	1901
818.96796	1894
818.99847	1922
819.02905	1883
819.05957	1915
819.09015	1917
819.12067	1954
819.15125	1888
819.18176	1907
819.21234	1902
819.24286	1927
819.27338	1923
819.30396	1915
819.33447	1926
819.36499	1891
819.39557	1883
819.42609	1936
819.4566	1906
819.48718	1894
819.5177	1916
819.54822	1937
819.57874	1921
819.60925	1899
819.63983	1922
819.67035	1923
819.70087	1915
819.73138	1876
819.7619	1898
819.79242	1937
819.82294	1888
819.85345	1912
819.88397	1892
819.91455	1875
819.94507	1886
819.97559	1895
820.0061	1910
820.03662	1923
820.06708	1894
820.0976	1880
820.12811	1955
820.15863	1911
820.18915	1923
820.21967	1916
820.25018	1915
820.2807	1901
820.31122	1970
820.34167	1891
820.37219	1927
820.40271	1934
820.43323	1927
820.46368	1900
820.4942	1912
820.52472	1925
820.55518	1914
820.58569	1931
820.61621	1904
820.64667	1911
820.67719	1910
820.7077	1906
820.73816	1917
820.76868	1914
820.79913	1925
820.82965	1903
820.86011	1898
820.89063	1927
820.92108	1922
820.9516	1927
820.98206	1929
821.01257	1920
821.04303	1900
821.07355	1951
821.104	1907
821.13446	1931
821.16498	1896
821.19543	1910
821.22589	1892
821.25641	1905
821.28687	1915
821.31732	1907
821.34784	1921
821.3783	1941
821.40875	1946
821.43921	1896
821.46967	1923
821.50018	1927
821.53064	1929
821.5611	1903
821.59155	1914
821.62201	1956
821.65247	1911
821.68292	1915
821.71338	1923
821.74384	1903
821.77429	1914
821.80475	1901
821.83521	1891
821.86566	1903
821.89612	1936
821.92657	1952
821.95703	1955
821.98749	1943
822.01794	1903
822.0484	1927
822.07886	1939
822.10931	1921
822.13971	1919
822.17017	1923
822.20062	1913
822.23108	1916
822.26154	1925
822.29193	1941
822.32239	1904
822.35284	1894
822.38324	1905
822.4137	1922
822.44415	1937
822.47455	1907
822.505	1909
822.53546	1929
822.56586	1921
822.59631	1913
822.62671	1901
822.65717	1929
822.68756	1938
822.71802	1942
822.74841	1929
822.77887	1926
822.80927	1906
822.83972	1884
822.87012	1927
822.90057	1909
822.93097	1920
822.96136	1932
822.99182	1948
823.02222	1936
823.05261	1948
823.08307	1906
823.11346	1932
823.14386	1938
823.17432	1927
823.20471	1917
823.23511	1916
823.2655	1914
823.2959	1915
823.32635	1908
823.35675	1952
823.38715	1921
823.41754	1923
823.44794	1964
823.47833	1959
823.50873	1920
823.53912	1923
823.56952	1923
823.59991	1922
823.63031	1939
823.66071	1925
823.6911	1924
823.7215	1951
823.75189	1941
823.78229	1914
823.81268	1942
823.84308	1917
823.87347	1936
823.90387	1934
823.9342	1931
823.9646	1947
823.995	1954
824.02539	1909
824.05579	1923
824.08612	1958
824.11652	1934
824.14691	1925
824.17725	1936
824.20764	1942
824.23804	1934
824.26837	1911
824.29877	1937
824.32916	1945
824.3595	1954
824.38989	1972
824.42023	1949
824.45062	1929
824.48102	1927
824.51135	1917
824.54175	1926
824.57208	1954
824.60242	1951
824.63281	1966
824.66315	1940
824.69354	1938
824.72388	1903
824.75421	1923
824.78461	1957
824.81494	1954
824.84528	1949
824.87567	1950
824.90601	1943
824.93634	1931
824.96674	1979
824.99707	1916
825.0274	1934
825.05774	1957
825.08807	1942
825.11847	1941
825.1488	1931
825.17914	1935
825.20947	1950
825.23981	1964
825.27014	1956
825.30048	1951
825.33081	1933
825.36115	1924
825.39148	1958
825.42181	1970
825.45215	1929
825.48248	1930
825.51282	1942
825.54315	1932
825.57349	1934
825.60382	1943
825.63416	1968
825.66449	1997
825.69482	1947
825.7251	1916
825.75543	1945
825.78577	1955
825.8161	1964
825.84637	1941
825.87671	1961
825.90704	1942
825.93738	1937
825.96765	1962
825.99799	1957
826.02832	1938
826.05859	1954
826.08893	1963
826.11926	1945
826.14954	1975
826.17987	1938
826.21014	1919
826.24048	1953
826.27075	1933
826.30109	1954
826.33136	1953
826.36169	1968
826.39197	1935
826.4223	1970
826.45258	1936
826.48285	1951
826.51318	1958
826.54346	1950
826.57373	1956
826.60406	1984
826.63434	1921
826.66461	1984
826.69495	1950
826.72522	1922
826.75549	1945
826.78577	1968
826.8161	1978
826.84637	1918
826.87665	1973
826.90692	1962
826.93719	1971
826.96747	1961
826.99774	1970
827.02808	1946
827.05835	1973
827.08862	1945
827.1189	1980
827.14917	1972
827.17944	1941
827.20972	1952
827.23999	1944
827.27026	1955
827.30048	1953
827.33075	1944
827.36102	1977
827.3913	1959
827.42157	1946
827.45184	1938
827.48212	1969
827.51233	1937
827.5426	1961
827.57288	1958
827.60315	1960
827.63342	1939
827.66364	1982
827.69391	1963
827.72418	1969
827.75439	1936
827.78467	1953
827.81494	1968
827.84515	1952
827.87543	1946
827.90564	1954
827.93591	1951
827.96613	1919
827.9964	1973
828.02661	1960
828.05688	1924
828.0871	1963
828.11737	1959
828.14758	1969
828.17786	1934
828.20807	1936
828.23834	1957
828.26855	1988
828.29877	1957
828.32904	2003
828.35925	1945
828.38947	1943
828.41968	1956
828.44995	1951
828.48016	1965
828.51038	1975
828.54059	1974
828.57086	1953
828.60107	1966
828.63129	1945
828.6615	1977
828.69171	1947
828.72192	1957
828.75214	1975
828.78235	1958
828.81262	1959
828.84283	1951
828.87305	1946
828.90326	1933
828.93347	1965
828.96362	1948
828.99384	1954
829.02405	1937
829.05426	1955
829.08447	1985
829.11469	1953
829.1449	1952
829.17511	1958
829.20532	1965
829.23547	1962
829.26569	1942
829.2959	1964
829.32611	1972
829.35626	1965
829.38647	1955
829.41669	1951
829.4469	1995
829.47705	1963
829.50726	1983
829.53741	1959
829.56763	1966
829.59784	1916
829.62799	1982
829.6582	1951
829.68835	1975
829.71857	1947
829.74872	1956
829.77893	1948
829.80908	1956
829.83929	1973
829.86945	1973
829.89966	1962
829.92981	1978
829.95996	1905
829.99017	1954
830.02032	1984
830.05048	1944
830.08069	1974
830.11084	1945
830.14099	1946
830.1712	1935
830.20135	1966
830.23151	1947
830.26166	1965
830.29181	1996
830.32202	1942
830.35217	1961
830.38232	1960
830.41248	1946
830.44263	1953
830.47278	1950
830.50293	1958
830.53308	1951
830.56323	1985
830.59338	1973
830.62354	1971
830.65369	1960
830.68384	1968
830.71399	1953
830.74414	1953
830.77429	1965
830.80444	1953
830.83459	1934
830.86475	1908
830.89484	1938
830.92499	2001
830.95514	1985
830.98529	1947
831.01544	1944
831.04553	1932
831.07568	1950
831.10583	1933
831.13593	1970
831.16608	1970
831.19623	1963
831.22632	1952
831.25647	1970
831.28662	1930
831.31671	1948
831.34686	1970
831.37695	1927
831.4071	1973
831.43719	1954
831.46735	1959
831.49744	1951
831.52759	1923
831.55768	1982
831.58783	1934
831.61792	1967
831.64801	1966
831.67816	1936
831.70825	1953
831.73834	1959
831.76849	1961
831.79858	1975
831.82867	1948
831.85876	1957
831.88892	1959
831.91901	1967
831.9491	1942
831.97919	1963
832.00934	1952
832.03943	1954
832.06952	1965
832.09961	1944
832.1297	1957
832.15979	1950
832.18988	1968
832.21997	1971
832.25006	1921
832.28015	1953
832.31024	1935
832.34033	1967
832.37042	1997
832.40051	1958
832.4306	1964
832.46069	1960
832.49078	1988
832.52087	1955
832.5509	2000
832.58099	1978
832.61108	1948
832.64117	1976
832.67126	1944
832.70129	1944
832.73138	1929
832.76147	1977
832.79156	1960
832.82159	1967
832.85168	1981
832.88171	1956
832.9118	1951
832.94189	1968
832.97192	1974
833.00201	1995
833.03204	1944
833.06213	1926
833.09216	1964
833.12225	1974
833.15228	1934
833.18237	1984
833.2124	1947
833.24249	1967
833.27252	1961
833.30261	1978
833.33264	1945
833.36267	1923
833.39276	1959
833.42279	1960
833.45282	1950
833.48291	1925
833.51294	1925
833.54297	1966
833.573	1978
833.60303	1951
833.63312	1938
833.66315	1931
833.69318	1979
833.72321	1955
833.75323	1939
833.78326	1975
833.81329	1987
833.84332	1934
833.87341	1927
833.90344	1920
833.93347	2005
833.9635	1967
833.99353	1948
834.0235	1995
834.05353	1947
834.08356	1969
834.11359	1932
834.14362	1978
834.17365	1953
834.20367	1962
834.2337	1987
834.26367	1976
834.2937	1940
834.32373	1973
834.35376	1943
834.38373	1931
834.41376	1967
834.44379	1957
834.47382	1959
834.50378	1976
834.53381	1962
834.56378	1939
834.59381	1944
834.62384	1982
834.65381	1947
834.68384	1949
834.71381	1965
834.74384	1939
834.7738	1941
834.80383	1964
834.8338	1949
834.86383	1967
834.8938	1967
834.92383	1952
834.9538	1969
834.98376	1972
835.01379	1964
835.04376	1949
835.07373	1965
835.10376	1980
835.13373	1985
835.1637	1967
835.19366	1925
835.22369	1957
835.25366	1967
835.28363	1961
835.3136	1935
835.34357	1956
835.37354	1954
835.4035	1950
835.43353	1947
835.4635	1996
835.49347	1981
835.52344	1933
835.55341	1947
835.58337	1958
835.61334	1965
835.64331	1954
835.67328	1952
835.70325	1963
835.73315	1981
835.76312	1944
835.79309	1950
835.82306	1974
835.85303	1982
835.883	1953
835.91296	1937
835.94287	1996
835.97284	1928
836.00281	1966
836.03278	1951
836.06268	1955
836.09265	1945
836.12262	1971
836.15253	1979
836.1825	1957
836.2124	1937
836.24237	1971
836.27234	1965
836.30225	1985
836.33221	1982
836.36212	1932
836.39209	1948
836.422	1960
836.45197	1977
836.48187	1970
836.51184	1991
836.54175	1963
836.57166	1944
836.60162	1966
836.63153	1969
836.66144	1982
836.69141	1967
836.72131	1969
836.75122	1996
836.78119	1979
836.8111	1945
836.841	1982
836.87091	1946
836.90082	1963
836.93079	1953
836.96069	1958
836.9906	1957
837.02051	1975
837.05042	1968
837.08032	1971
837.11023	1958
837.14014	1965
837.17004	2015
837.19995	1964
837.22986	1960
837.25977	1981
837.28967	1981
837.31958	1967
837.34949	1943
837.37939	1961
837.4093	1998
837.43915	1971
837.46906	1967
837.49896	1987
837.52887	1995
837.55878	1956
837.58862	1985
837.61853	1964
837.64844	1989
837.67834	2004
837.70819	1980
837.7381	1971
837.76801	1963
837.79785	1970
837.82776	2000
837.8576	1970
837.88751	1980
837.91736	1995
837.94727	1949
837.97717	1989
838.00702	2002
838.03687	2007
838.06677	1973
838.09662	1988
838.12653	2015
838.15637	1972
838.18628	1975
838.21613	1978
838.24597	2009
838.27588	1977
838.30573	1975
838.33557	2002
838.36542	2002
838.39532	2019
838.42517	1978
838.45502	1982
838.48486	2000
838.51471	1999
838.54462	1987
838.57446	2019
838.60431	1977
838.63416	2040
838.664	1994
838.69385	2040
838.72369	2026
838.75354	2015
838.78339	2011
838.81323	2011
838.84308	2024
838.87292	2011
838.90277	2035
838.93262	2028
838.96246	2034
838.99231	2008
839.02216	2023
839.05194	2013
839.08179	2045
839.11163	2020
839.14148	2019
839.17126	2016
839.20111	2058
839.23096	2021
839.2608	2032
839.29059	2035
839.32043	2057
839.35028	2001
839.38007	2062
839.40991	2052
839.4397	2066
839.46954	2044
839.49939	2054
839.52917	2052
839.55902	2054
839.58881	2088
839.61865	2071
839.64844	2074
839.67822	2056
839.70807	2089
839.73785	2042
839.7677	2059
839.79749	2073
839.82727	2005
839.85712	2085
839.8869	2073
839.91669	2075
839.94647	2138
839.97632	2116
840.0061	2084
840.03589	2091
840.06567	2095
840.09552	2092
840.12531	2103
840.15509	2073
840.18488	2131
840.21466	2100
840.24445	2123
840.27423	2134
840.30402	2154
840.3338	2120
840.36359	2092
840.39337	2142
840.42316	2132
840.45294	2140
840.48273	2143
840.51251	2130
840.5423	2132
840.57208	2162
840.60181	2111
840.63159	2127
840.66138	2077
840.69116	2183
840.72095	2147
840.75067	2147
840.78046	2128
840.81024	2168
840.84003	2143
840.86975	2184
840.89954	2175
840.92926	2182
840.95905	2102
840.98883	2123
841.01855	2188
841.04834	2193
841.07806	2110
841.10785	2156
841.13757	2137
841.16736	2170
841.19708	2218
841.22687	2201
841.25659	2131
841.28638	2125
841.3161	2145
841.34583	2179
841.37561	2188
841.40533	2199
841.43506	2195
841.46484	2115
841.49457	2166
841.52429	2142
841.55402	2170
841.5838	2108
841.61353	2208
841.64325	2145
841.67297	2177
841.7027	2122
841.73242	2165
841.76215	2128
841.79193	2162
841.82166	2146
841.85138	2099
841.8811	2117
841.91083	2133
841.94055	2136
841.97028	2140
842	2128
842.02966	2147
842.05939	2046
842.08911	2133
842.11884	2128
842.14856	2103
842.17828	2064
842.20801	2118
842.23767	2089
842.2674	2093
842.29712	2118
842.32684	2120
842.35651	2120
842.38623	2122
842.41595	2092
842.44562	2115
842.47534	2117
842.50507	2125
842.53473	2093
842.56445	2177
842.59412	2098
842.62384	2121
842.6535	2132
842.68323	2153
842.71289	2115
842.74261	2133
842.77228	2098
842.802	2130
842.83167	2147
842.86133	2136
842.89105	2134
842.92072	2140
842.95038	2147
842.9801	2150
843.00977	2160
843.03943	2170
843.06915	2175
843.09882	2152
843.12848	2142
843.15814	2162
843.18781	2192
843.21747	2118
843.24719	2172
843.27686	2167
843.30652	2186
843.33618	2133
843.36584	2191
843.39551	2207
843.42517	2140
843.45483	2176
843.4845	2191
843.51416	2152
843.54382	2212
843.57349	2114
843.60315	2196
843.63275	2150
843.66241	2214
843.69208	2189
843.72174	2123
843.7514	2232
843.78107	2223
843.81067	2121
843.84033	2183
843.87	2169
843.8996	2114
843.92926	2190
843.95892	2175
843.98853	2171
844.01819	2172
844.04785	2192
844.07745	2205
844.10712	2156
844.13672	2204
844.16638	2198
844.19598	2185
844.22565	2182
844.25525	2173
844.28491	2193
844.31451	2182
844.34418	2218
844.37378	2176
844.40338	2172
844.43304	2179
844.46265	2134
844.49225	2163
844.52191	2181
844.55151	2183
844.58112	2173
844.61072	2112
844.64038	2155
844.66998	2155
844.69958	2115
844.72919	2165
844.75879	2133
844.78839	2145
844.81799	2197
844.84766	2102
844.87726	2167
844.90686	2136
844.93646	2089
844.96606	2124
844.99567	2128
845.02527	2138
845.05487	2117
845.08441	2134
845.11401	2075
845.14362	2106
845.17322	2118
845.20282	2084
845.23242	2131
845.26202	2087
845.29156	2125
845.32117	2090
845.35077	2090
845.38031	2077
845.40991	2107
845.43951	2137
845.46912	2079
845.49866	2089
845.52826	2087
845.5578	2092
845.5874	2135
845.617	2120
845.64655	2117
845.67615	2087
845.70569	2110
845.73529	2095
845.76483	2084
845.79437	2061
845.82397	2101
845.85352	2102
845.88312	2057
845.91266	2040
845.9422	2054
845.9718	2055
846.00134	2107
846.03088	2096
846.06049	2069
846.09003	2044
846.11957	2007
846.14911	2087
846.17865	2047
846.20825	2041
846.23779	2039
846.26733	2070
846.29688	2060
846.32642	2086
846.35596	2051
846.3855	2066
846.41504	2085
846.44458	2059
846.47412	1997
846.50366	2105
846.5332	2051
846.56274	2076
846.59229	2047
846.62183	2035
846.65137	2039
846.68091	2071
846.71039	2035
846.73993	2060
846.76947	2025
846.79901	2050
846.82849	2040
846.85803	2053
846.88757	2080
846.91711	2035
846.94659	2046
846.97614	2042
847.00568	2028
847.03516	2053
847.0647	2059
847.09418	2018
847.12372	2018
847.1532	2036
847.18274	2039
847.21222	2037
847.24176	2059
847.27124	2033
847.30078	2016
847.33026	2053
847.35974	2048
847.38928	2055
847.41876	2046
847.4483	2065
847.47778	2095
847.50726	2041
847.53674	2063
847.56628	2037
847.59576	2044
847.62524	2074
847.65472	2035
847.6842	2034
847.71375	2039
847.74323	2071
847.77271	2016
847.80219	2046
847.83167	2058
847.86115	2054
847.89063	2057
847.9201	2033
847.94958	2043
847.97906	2030
848.00854	2055
848.03802	2054
848.0675	2036
848.09698	2031
848.12646	2001
848.15588	2045
848.18536	2024
848.21484	2020
848.24432	2043
848.2738	2040
848.30322	2035
848.3327	2051
848.36218	2032
848.3916	2021
848.42108	2018
848.45056	2022
848.47998	2033
848.50946	2050
848.53894	2028
848.56836	2060
848.59784	2062
848.62726	2045
848.65674	2094
848.68616	2010
848.71564	2012
848.74506	2038
848.77454	2014
848.80396	2035
848.83337	2045
848.86285	2050
848.89227	2041
848.92169	2047
848.95117	2032
848.98059	2055
849.01001	2042
849.03943	2041
849.06891	2037
849.09833	2017
849.12775	2039
849.15717	2036
849.18658	2022
849.216	2041
849.24548	2037
849.2749	2046
849.30432	2042
849.33374	2047
849.36316	2042
849.39258	2039
849.422	2034
849.45142	2061
849.48083	2035
849.51025	2054
849.53961	2053
849.56903	2057
849.59845	2047
849.62787	2072
849.65729	2038
849.68671	2079
849.71606	2006
849.74548	2049
849.7749	2016
849.80432	2061
849.83368	2031
849.8631	2072
849.89252	2023
849.92188	2029
849.95129	2041
849.98071	2018
850.01007	1993
850.03949	2047
850.06885	2057
850.09827	2031
850.12762	2060
850.15704	2036
850.1864	2023
850.21582	2042
850.24518	2024
850.27454	2038
850.30396	1993
850.33331	2032
850.36267	2032
850.39209	2069
850.42145	2092
850.45081	2023
850.48016	2057
850.50958	2039
850.53894	2042
850.5683	2056
850.59766	2036
850.62701	2042
850.65643	2034
850.68579	2056
850.71515	2039
850.74451	2016
850.77386	1999
850.80322	2089
850.83258	2031
850.86194	2010
850.8913	2055
850.92065	2061
850.95001	2054
850.97937	2038
851.00867	2059
851.03802	2019
851.06738	2043
851.09674	2040
851.1261	2064
851.15546	2040
851.18475	2052
851.21411	2038
851.24347	2067
851.27277	2080
851.30212	2005
851.33148	2022
851.36078	2037
851.39014	2038
851.41949	2028
851.44879	1986
851.47815	2078
851.50745	2040
851.5368	2050
851.5661	2029
851.59546	2022
851.62476	2028
851.65411	2076
851.68341	2015
851.71271	2038
851.74207	2061
851.77136	2025
851.80066	2009
851.83002	2041
851.85931	2008
851.88861	2059
851.91797	2057
851.94727	2062
851.97656	2032
852.00586	2033
852.03516	2032
852.06445	2030
852.09381	2031
852.12311	2032
852.1524	2052
852.1817	2037
852.211	2020
852.2403	2040
852.26959	2017
852.29889	2048
852.32819	2010
852.35748	2036
852.38678	2026
852.41608	2087
852.44531	2025
852.47461	2035
852.50391	2028
852.5332	2036
852.5625	2071
852.59174	2029
852.62103	2018
852.65033	2046
852.67963	2002
852.70886	2024
852.73816	2036
852.76746	2055
852.79669	2009
852.82599	2034
852.85522	2036
852.88452	2043
852.91382	2027
852.94305	2026
852.97235	2044
853.00159	2033
853.03088	2040
853.06012	2027
853.08936	2021
853.11865	2058
853.14789	2029
853.17719	2047
853.20642	2075
853.23566	2059
853.26489	1979
853.29419	2021
853.32343	1996
853.35266	2021
853.3819	2063
853.41119	2021
853.44043	2066
853.46967	2019
853.4989	2029
853.52814	2014
853.55737	1990
853.58661	2039
853.61584	2025
853.64508	2008
853.67432	2015
853.70355	1997
853.73279	2006
853.76202	2013
853.79126	2048
853.8205	2060
853.84973	2050
853.87897	2033
853.9082	2054
853.93738	2033
853.96661	2025
853.99585	2016
854.02509	2068
854.05432	2027
854.0835	2028
854.11273	2037
854.14197	2019
854.17114	2029
854.20038	2012
854.22955	2065
854.25879	2039
854.28802	2021
854.3172	2085
854.34644	2049
854.37561	2024
854.40485	2062
854.43402	2051
854.46326	2003
854.49243	2046
854.52161	2031
854.55084	2025
854.58002	2068
854.60919	2035
854.63843	2046
854.6676	2046
854.69678	2026
854.72601	2019
854.75519	2051
854.78436	2068
854.81354	2046
854.84271	2046
854.87189	2039
854.90112	2027
854.9303	2033
854.95947	2044
854.98865	2024
855.01782	2046
855.047	2039
855.07617	2016
855.10535	2048
855.13452	2025
855.1637	2049
855.19287	2049
855.22205	2040
855.25116	2019
855.28033	2029
855.30951	2053
855.33868	2029
855.36786	2049
855.39703	2059
855.42615	2081
855.45532	2046
855.4845	2021
855.51361	2054
855.54279	2072
855.57196	2028
855.60107	2012
855.63025	2042
855.65936	2027
855.68854	2020
855.71771	2030
855.74683	2022
855.776	2016
855.80511	2032
855.83423	2018
855.8634	2038
855.89252	2031
855.92169	2075
855.95081	2035
855.97992	2038
856.00909	2025
856.03821	2073
856.06732	2055
856.0965	2027
856.12561	2017
856.15472	2043
856.18384	2074
856.21295	2045
856.24213	2052
856.27124	2058
856.30035	2042
856.32947	2072
856.35858	2044
856.3877	2029
856.41681	2036
856.44592	2008
856.47504	2079
856.50415	2074
856.53326	2015
856.56238	2083
856.59149	2058
856.62061	2025
856.64972	2014
856.67877	2095
856.70789	2069
856.737	2049
856.76611	2054
856.79517	2046
856.82428	2023
856.85339	2042
856.88251	2061
856.91156	2070
856.94067	2042
856.96979	2051
856.99884	2026
857.02795	2067
857.05701	2037
857.08612	2042
857.11517	2032
857.14429	2059
857.17334	2075
857.20245	2058
857.23151	2046
857.26062	2048
857.28967	2062
857.31873	2066
857.34784	2066
857.37689	2061
857.40594	2070
857.43506	2036
857.46411	2045
857.49316	2045
857.52222	2037
857.55133	2057
857.58038	2070
857.60944	2057
857.63849	2030
857.66754	2044
857.69659	2074
857.72565	2050
857.7547	2095
857.78375	2089
857.81281	2060
857.84186	2058
857.87091	2055
857.89996	2060
857.92902	2103
857.95807	2095
857.98712	2080
858.01617	2066
858.04523	2055
858.07428	2067
858.10327	2037
858.13232	2050
858.16138	2041
858.19043	2056
858.21942	2079
858.24847	2069
858.27753	2064
858.30652	2065
858.33557	2076
858.36456	2047
858.39362	2119
858.42267	2023
858.45166	2079
858.48071	2101
858.5097	2101
858.53876	2079
858.56775	2052
858.59674	2081
858.62579	2042
858.65479	2040
858.68384	2094
858.71283	2054
858.74182	2094
858.77087	2076
858.79987	2082
858.82886	2064
858.85785	2068
858.8869	2043
858.91589	2063
858.94489	2078
858.97388	2094
859.00287	2055
859.03186	2089
859.06085	2098
859.08984	2048
859.1189	2067
859.14789	2057
859.17688	2068
859.20587	2108
859.2348	2080
859.26379	2085
859.29279	2046
859.32178	2094
859.35077	2060
859.37976	2100
859.40875	2112
859.43774	2114
859.46667	2109
859.49567	2097
859.52466	2092
859.55365	2093
859.58258	2087
859.61157	2114
859.64056	2067
859.66949	2073
859.69849	2102
859.72742	2062
859.75641	2113
859.7854	2105
859.81433	2092
859.84332	2108
859.87225	2138
859.90118	2087
859.93018	2065
859.95911	2096
859.9881	2081
860.01703	2094
860.04596	2079
860.07495	2104
860.10388	2092
860.13281	2069
860.1618	2076
860.19073	2101
860.21967	2085
860.2486	2070
860.27753	2092
860.30652	2136
860.33545	2079
860.36438	2104
860.39331	2117
860.42224	2072
860.45117	2108
860.4801	2082
860.50903	2066
860.53796	2138
860.56689	2106
860.59583	2137
860.62476	2140
860.65369	2088
860.68262	2075
860.71149	2093
860.74042	2084
860.76935	2083
860.79828	2082
860.82721	2116
860.85608	2117
860.88501	2086
860.91394	2118
860.94287	2127
860.97174	2118
861.00067	2106
861.02954	2128
861.05847	2116
861.0874	2121
861.11627	2049
861.1452	2086
861.17407	2089
861.203	2082
861.23187	2110
861.2608	2108
861.28967	2123
861.31854	2133
861.34747	2050
861.37634	2084
861.40521	2082
861.43414	2089
861.46301	2133
861.49188	2146
861.52075	2127
861.54968	2086
861.57855	2130
861.60742	2113
861.63629	2132
861.66516	2108
861.69403	2171
861.72296	2153
861.75183	2088
861.7807	2116
861.80957	2081
861.83844	2104
861.86731	2131
861.89618	2144
861.92505	2160
861.95386	2148
861.98273	2119
862.0116	2083
862.04047	2154
862.06934	2121
862.09821	2180
862.12701	2117
862.15588	2145
862.18475	2175
862.21362	2128
862.24243	2139
862.2713	2120
862.30017	2168
862.32898	2166
862.35785	2181
862.38666	2098
862.41553	2174
862.4444	2157
862.47321	2118
862.50208	2148
862.53088	2147
862.55969	2180
862.58856	2149
862.61737	2129
862.64624	2131
862.67505	2184
862.70386	2161
862.73273	2119
862.76154	2161
862.79034	2140
862.81921	2108
862.84802	2146
862.87683	2109
862.90564	2133
862.93445	2170
862.96326	2155
862.99213	2140
863.02094	2185
863.04974	2181
863.07855	2109
863.10736	2220
863.13617	2154
863.16498	2183
863.19379	2188
863.2226	2148
863.2514	2106
863.28021	2171
863.30896	2153
863.33777	2171
863.36658	2168
863.39539	2132
863.42419	2214
863.453	2144
863.48175	2145
863.51056	2221
863.53937	2212
863.56812	2137
863.59692	2195
863.62573	2191
863.65448	2165
863.68329	2196
863.71204	2200
863.74084	2171
863.76959	2160
863.7984	2159
863.82715	2175
863.85596	2164
863.8847	2173
863.91351	2221
863.94226	2186
863.97107	2199
863.99982	2138
864.02856	2194
864.05731	2151
864.08612	2186
864.11487	2136
864.14362	2191
864.17236	2203
864.20117	2150
864.22992	2219
864.25867	2175
864.28741	2205
864.31616	2223
864.34491	2237
864.37366	2185
864.4024	2251
864.43115	2223
864.4599	2188
864.48865	2197
864.5174	2218
864.54614	2254
864.57489	2234
864.60364	2250
864.63239	2193
864.66113	2281
864.68982	2245
864.71857	2212
864.74731	2186
864.77606	2179
864.80481	2212
864.8335	2250
864.86224	2215
864.89099	2247
864.91968	2210
864.94843	2272
864.97711	2235
865.00586	2222
865.03455	2204
865.06329	2224
865.09198	2263
865.12073	2222
865.14941	2244
865.17816	2234
865.20685	2255
865.2356	2185
865.26428	2228
865.29297	2237
865.32172	2256
865.3504	2244
865.37909	2260
